type,word,colour,correct_key,height,StroopTrails.thisRepN,StroopTrails.thisTrialN,StroopTrails.thisN,StroopTrails.thisIndex,level1loop.thisRepN,level1loop.thisTrialN,level1loop.thisN,level1loop.thisIndex,thisRow.t,notes,Welcome.started,WelcomeMessage.started,WelcomeKey.started,Welcome.stopped,WelcomeKey.keys,WelcomeKey.rt,WelcomeKey.duration,Blank500.started,Thisisblank.started,Blank500.stopped,q1.started,box1.started,box2.started,mouse.started,image.started,Yes.started,No.started,q1.stopped,mouse.x,mouse.y,mouse.leftButton,mouse.midButton,mouse.rightButton,mouse.time,mouse.clicked_name,q2.started,box1_2.started,box2_2.started,mouse_2.started,image_2.started,Yes_2.started,No_2.started,q2.stopped,mouse_2.x,mouse_2.y,mouse_2.leftButton,mouse_2.midButton,mouse_2.rightButton,mouse_2.time,mouse_2.clicked_name,q3.started,box1_3.started,box2_3.started,mouse_3.started,image_3.started,Yes_3.started,No_3.started,q3.stopped,mouse_3.x,mouse_3.y,mouse_3.leftButton,mouse_3.midButton,mouse_3.rightButton,mouse_3.time,mouse_3.clicked_name,q4.started,box1_5.started,box2_5.started,mouse_5.started,image_5.started,Yes_5.started,No_5.started,q4.stopped,mouse_5.x,mouse_5.y,mouse_5.leftButton,mouse_5.midButton,mouse_5.rightButton,mouse_5.time,mouse_5.clicked_name,q5.started,box1_6.started,box2_6.started,mouse_6.started,image_6.started,Yes_6.started,No_6.started,q5.stopped,mouse_6.x,mouse_6.y,mouse_6.leftButton,mouse_6.midButton,mouse_6.rightButton,mouse_6.time,mouse_6.clicked_name,Thisisblank.stopped,q6.started,box1_7.started,box2_7.started,image_7.started,Yes_7.started,No_7.started,mouse_7.started,q6.stopped,mouse_7.x,mouse_7.y,mouse_7.leftButton,mouse_7.midButton,mouse_7.rightButton,mouse_7.time,mouse_7.clicked_name,Stress_Level.started,StressResponse.started,StressResponsekeyboard.started,textbox.started,presstomove.started,Stress_Level.stopped,StressResponsekeyboard.keys,textbox.text,presstomove.keys,presstomove.rt,presstomove.duration,Instructions_for_trail1.started,Instructionscreen1.started,key_resp.started,Instructions_for_trail1.stopped,key_resp.keys,key_resp.rt,key_resp.duration,trial.started,Stroopword.started,Response.started,movie.started,trial.stopped,Response.keys,Response.corr,feedback.started,text_6.started,feedback.stopped,Response.rt,Response.duration,Instructions_for_test.started,text_5.started,key_resp_4.started,Instructions_for_test.stopped,key_resp_4.keys,key_resp_4.rt,key_resp_4.duration,level1test.started,text.started,keyresponselevel1.started,movie_2.started,level1test.stopped,keyresponselevel1.keys,keyresponselevel1.corr,participant,session,date,expName,psychopyVersion,frameRate,expStart,
,,,,,,,,,,,,,,,0.009414400003151968,0.019085200001427438,0.019085200001427438,1.3621578000020236,space,1.3412931999991997,None,,,,,,,,,,,,,,,,,,,,,,,,,,,,,,,,,,,,,,,,,,,,,,,,,,,,,,,,,,,,,,,,,,,,,,,,,,,,,,,,,,,,,,,,,,,,,,,,,,,,,,,,,,,,,,,,,,,,,,,,,,,,,,,,,,,,,,,,,,,Hellothisisfinaltrial,001,2024-03-03_17h11.34.230,Stroop_test_final,2023.2.3,119.53215116026256,2024-03-03 17h11.50.255798 +0530,
,,,,,,,,,,,,,,,,,,,,,,1.3622289000049932,1.3733435000031022,1.864328800002113,1.864350200004992,1.8896764000019175,1.8896764000019175,0.002215000000433065,1.8896764000019175,1.8896764000019175,1.8896764000019175,3.823460100000375,[0.4722222222222222],[-0.32407407407407407],[1],[0],[0],[1.8474637999970582],['box2'],,,,,,,,,,,,,,,,,,,,,,,,,,,,,,,,,,,,,,,,,,,,,,,,,,,,,,,,,,,,,,,,,,,,,,,,,,,,,,,,,,,,,,,,,,,,,,,,,,,,,,,,,,,,,,,,,,,,,,,,,Hellothisisfinaltrial,001,2024-03-03_17h11.34.230,Stroop_test_final,2023.2.3,119.53215116026256,2024-03-03 17h11.50.255798 +0530,
,,,,,,,,,,,,,,,,,,,,,,3.823572500004957,3.83636480000132,4.32672520000051,,,,,,,,,,,,,,,,4.326736499999242,4.692204800005129,4.692204800005129,0.0032084000049508177,4.692204800005129,4.692204800005129,4.692204800005129,5.085497899999609,[0.4962962962962963],[-0.34074074074074073],[1],[0],[0],[0.6995392000026186],['box2'],,,,,,,,,,,,,,,,,,,,,,,,,,,,,,,,,,,,,,,,,,,,,,,,,,,,,,,,,,,,,,,,,,,,,,,,,,,,,,,,,,,,,,,,,,,,,,,,,,,,,,,,,,Hellothisisfinaltrial,001,2024-03-03_17h11.34.230,Stroop_test_final,2023.2.3,119.53215116026256,2024-03-03 17h11.50.255798 +0530,
,,,,,,,,,,,,,,,,,,,,,,5.08564170000318,5.09365329999855,5.5994684000033885,,,,,,,,,,,,,,,,,,,,,,,,,,,,,,,5.5994825000016135,5.62421650000033,5.62421650000033,0.01389740000013262,5.62421650000033,5.62421650000033,5.62421650000033,6.051514800004952,[0.5157407407407407],[-0.36944444444444446],[1],[0],[0],[0.3856000000014319],['box2'],,,,,,,,,,,,,,,,,,,,,,,,,,,,,,,,,,,,,,,,,,,,,,,,,,,,,,,,,,,,,,,,,,,,,,,,,,,,,,,,,,,,,,,,,,,Hellothisisfinaltrial,001,2024-03-03_17h11.34.230,Stroop_test_final,2023.2.3,119.53215116026256,2024-03-03 17h11.50.255798 +0530,
,,,,,,,,,,,,,,,,,,,,,,6.0516495999982,6.0657610000052955,6.555767999998352,,,,,,,,,,,,,,,,,,,,,,,,,,,,,,,,,,,,,,,,,,,,,,6.555781200004276,6.573482400002831,6.573482400002831,0.00417330000345828,6.573482400002831,6.573482400002831,6.573482400002831,6.834255300003861,[0.5166666666666667],[-0.3388888888888889],[1],[0],[0],[0.22577740000269841],['box2'],,,,,,,,,,,,,,,,,,,,,,,,,,,,,,,,,,,,,,,,,,,,,,,,,,,,,,,,,,,,,,,,,,,,,,,,,,,,Hellothisisfinaltrial,001,2024-03-03_17h11.34.230,Stroop_test_final,2023.2.3,119.53215116026256,2024-03-03 17h11.50.255798 +0530,
,,,,,,,,,,,,,,,,,,,,,,6.834375400001591,6.847049600000901,7.347026300005382,,,,,,,,,,,,,,,,,,,,,,,,,,,,,,,,,,,,,,,,,,,,,,,,,,,,,,,,,,,,,7.3470454000053,7.371807800001989,7.371807800001989,0.012733800002024509,7.371807800001989,7.371807800001989,7.371807800001989,7.655409099999815,[0.5175925925925926],[-0.33796296296296297],[1],[0],[0],[0.24126869999599876],['box2'],,,,,,,,,,,,,,,,,,,,,,,,,,,,,,,,,,,,,,,,,,,,,,,,,,,,,,,,,,,,,Hellothisisfinaltrial,001,2024-03-03_17h11.34.230,Stroop_test_final,2023.2.3,119.53215116026256,2024-03-03 17h11.50.255798 +0530,
,,,,,,,,,,,,,,,,,,,,,,7.655525900001521,7.662227500004519,8.153636200004257,,,,,,,,,,,,,,,,,,,,,,,,,,,,,,,,,,,,,,,,,,,,,,,,,,,,,,,,,,,,,,,,,,,,,,,,,,,,8.186324200003583,8.153652200002398,8.186324200003583,8.186324200003583,8.186324200003583,8.186324200003583,8.186324200003583,0.03094759999657981,8.530014399999345,[0.5148148148148148],[-0.3388888888888889],[1],[0],[0],[0.2932444000034593],['box2'],,,,,,,,,,,,,,,,,,,,,,,,,,,,,,,,,,,,,,,,,,,,,Hellothisisfinaltrial,001,2024-03-03_17h11.34.230,Stroop_test_final,2023.2.3,119.53215116026256,2024-03-03 17h11.50.255798 +0530,
,,,,,,,,,,,,,,,,,,,,,,8.53015260000393,8.544193599998835,9.035394700003962,,,,,,,,,,,,,,,,,,,,,,,,,,,,,,,,,,,,,,,,,,,,,,,,,,,,,,,,,,,,,,,,,,,,,,,,,,,,,,,,,,,,,,,,,,,,9.03540829999838,9.051291000003403,9.051291000003403,9.051291000003403,9.051291000003403,16.547442900002352,None,,,,,,,,,,,,,,,,,,,,,,,,,,,,,,,,,,,,,,Hellothisisfinaltrial,001,2024-03-03_17h11.34.230,Stroop_test_final,2023.2.3,119.53215116026256,2024-03-03 17h11.50.255798 +0530,
,,,,,,,,,,,,,,,,,,,,,,,,,,,,,,,,,,,,,,,,,,,,,,,,,,,,,,,,,,,,,,,,,,,,,,,,,,,,,,,,,,,,,,,,,,,,,,,,,,,,,,,,,,,,,,,,,,,,,,,,,,,2,space,7.487825200005318,None,,,,,,,,,,,,,,,,,,,,,,,,,,,,,,,,,,Hellothisisfinaltrial,001,2024-03-03_17h11.34.230,Stroop_test_final,2023.2.3,119.53215116026256,2024-03-03 17h11.50.255798 +0530,
,,,,,,,,,,,,,,,,,,,,,,,,,,,,,,,,,,,,,,,,,,,,,,,,,,,,,,,,,,,,,,,,,,,,,,,,,,,,,,,,,,,,,,,,,,,,,,,,,,,,,,,,,,,,,,,,,,,,,,,,,,,,,,,16.54748880000261,16.57259630000044,16.57259630000044,17.712119200004963,space,1.1372887999968952,None,,,,,,,,,,,,,,,,,,,,,,,,,,,Hellothisisfinaltrial,001,2024-03-03_17h11.34.230,Stroop_test_final,2023.2.3,119.53215116026256,2024-03-03 17h11.50.255798 +0530,
incongruent,PINK,red,r,0.06,0,0,0,20,,,,,19.586208100001386,,,,,,,,,17.71215530000336,17.719949099999212,18.2186806000027,,,,,,,,,,,,,,,,,,,,,,,,,,,,,,,,,,,,,,,,,,,,,,,,,,,,,,,,,,,,,,,,,,,,,,,,,,,,,,,,,,,,,,,,,,,,,,,,,,,,,,,,,,,,,,18.42032360000303,19.586208100001386,19.586208100001386,19.586208100001386,21.362862699999823,None,0,21.483088300003146,21.506100999999035,22.869096100002935,,,,,,,,,,,,,,,,,Hellothisisfinaltrial,001,2024-03-03_17h11.34.230,Stroop_test_final,2023.2.3,119.53215116026256,2024-03-03 17h11.50.255798 +0530,
congruent,YELLOW,yellow,y,0.07,0,1,1,18,,,,,22.934969800000545,,,,,,,,,,,,,,,,,,,,,,,,,,,,,,,,,,,,,,,,,,,,,,,,,,,,,,,,,,,,,,,,,,,,,,,,,,,,,,,,,,,,,,,,,,,,,,,,,,,,,,,,,,,,,,,,,,,,,,,,,22.869358700001612,22.934969800000545,22.934969800000545,22.934969800000545,26.013061300000118,None,0,26.14305669999885,26.154665300004126,27.51975980000134,,,,,,,,,,,,,,,,,Hellothisisfinaltrial,001,2024-03-03_17h11.34.230,Stroop_test_final,2023.2.3,119.53215116026256,2024-03-03 17h11.50.255798 +0530,
incongruent,GREEN ,red,r,0.06,0,2,2,5,,,,,27.55201749999833,,,,,,,,,,,,,,,,,,,,,,,,,,,,,,,,,,,,,,,,,,,,,,,,,,,,,,,,,,,,,,,,,,,,,,,,,,,,,,,,,,,,,,,,,,,,,,,,,,,,,,,,,,,,,,,,,,,,,,,,,27.520111000005272,27.55201749999833,27.55201749999833,27.55201749999833,30.663941999999224,None,0,30.768649199999345,30.788796799999545,32.169089399998484,,,,,,,,,,,,,,,,,Hellothisisfinaltrial,001,2024-03-03_17h11.34.230,Stroop_test_final,2023.2.3,119.53215116026256,2024-03-03 17h11.50.255798 +0530,
incongruent,PINK,yellow,y,0.07,0,3,3,23,,,,,32.21067739999853,,,,,,,,,,,,,,,,,,,,,,,,,,,,,,,,,,,,,,,,,,,,,,,,,,,,,,,,,,,,,,,,,,,,,,,,,,,,,,,,,,,,,,,,,,,,,,,,,,,,,,,,,,,,,,,,,,,,,,,,,32.169421800004784,32.21067739999853,32.21067739999853,32.21067739999853,33.941265100002056,y,1,34.06104829999822,34.08181020000484,35.56357730000309,1.7191314000010607,None,,,,,,,,,,,,,,,Hellothisisfinaltrial,001,2024-03-03_17h11.34.230,Stroop_test_final,2023.2.3,119.53215116026256,2024-03-03 17h11.50.255798 +0530,
incongruent,GREEN ,yellow,y,0.07,0,4,4,8,,,,,35.60428790000151,,,,,,,,,,,,,,,,,,,,,,,,,,,,,,,,,,,,,,,,,,,,,,,,,,,,,,,,,,,,,,,,,,,,,,,,,,,,,,,,,,,,,,,,,,,,,,,,,,,,,,,,,,,,,,,,,,,,,,,,,35.56382719999965,35.60428790000151,35.60428790000151,35.60428790000151,36.38701530000253,y,1,36.490191400000185,36.50312400000257,37.99251789999835,0.7777836999957799,None,,,,,,,,,,,,,,,Hellothisisfinaltrial,001,2024-03-03_17h11.34.230,Stroop_test_final,2023.2.3,119.53215116026256,2024-03-03 17h11.50.255798 +0530,
incongruent,BLUE,green,g,0.05,0,5,5,11,,,,,38.033151600000565,,,,,,,,,,,,,,,,,,,,,,,,,,,,,,,,,,,,,,,,,,,,,,,,,,,,,,,,,,,,,,,,,,,,,,,,,,,,,,,,,,,,,,,,,,,,,,,,,,,,,,,,,,,,,,,,,,,,,,,,,37.992800799998804,38.033151600000565,38.033151600000565,38.033151600000565,39.049302200000966,g,1,39.15102000000479,39.16483840000001,40.65463950000412,1.0046978000027593,None,,,,,,,,,,,,,,,Hellothisisfinaltrial,001,2024-03-03_17h11.34.230,Stroop_test_final,2023.2.3,119.53215116026256,2024-03-03 17h11.50.255798 +0530,
incongruent,RED,blue,b,0.04,0,6,6,2,,,,,40.695294600001944,,,,,,,,,,,,,,,,,,,,,,,,,,,,,,,,,,,,,,,,,,,,,,,,,,,,,,,,,,,,,,,,,,,,,,,,,,,,,,,,,,,,,,,,,,,,,,,,,,,,,,,,,,,,,,,,,,,,,,,,,40.65494820000458,40.695294600001944,40.695294600001944,40.695294600001944,41.636342600002536,b,1,41.74410190000344,41.752026200003456,43.249707100003434,0.9243393999931868,None,,,,,,,,,,,,,,,Hellothisisfinaltrial,001,2024-03-03_17h11.34.230,Stroop_test_final,2023.2.3,119.53215116026256,2024-03-03 17h11.50.255798 +0530,
incongruent,BLUE,pink,p,0.03,0,7,7,14,,,,,43.283729399998265,,,,,,,,,,,,,,,,,,,,,,,,,,,,,,,,,,,,,,,,,,,,,,,,,,,,,,,,,,,,,,,,,,,,,,,,,,,,,,,,,,,,,,,,,,,,,,,,,,,,,,,,,,,,,,,,,,,,,,,,,43.2499456000005,43.283729399998265,43.283729399998265,43.283729399998265,44.6647152000005,p,1,44.77347610000288,44.78098999999929,46.27713809999841,1.3644535999992513,None,,,,,,,,,,,,,,,Hellothisisfinaltrial,001,2024-03-03_17h11.34.230,Stroop_test_final,2023.2.3,119.53215116026256,2024-03-03 17h11.50.255798 +0530,
incongruent,YELLOW,blue,b,0.04,0,8,8,17,,,,,46.320904000000155,,,,,,,,,,,,,,,,,,,,,,,,,,,,,,,,,,,,,,,,,,,,,,,,,,,,,,,,,,,,,,,,,,,,,,,,,,,,,,,,,,,,,,,,,,,,,,,,,,,,,,,,,,,,,,,,,,,,,,,,,46.277426300002844,46.320904000000155,46.320904000000155,46.320904000000155,47.21000130000175,b,1,47.334512800000084,47.343463000004704,48.83920870000293,0.8827262999984669,None,,,,,,,,,,,,,,,Hellothisisfinaltrial,001,2024-03-03_17h11.34.230,Stroop_test_final,2023.2.3,119.53215116026256,2024-03-03 17h11.50.255798 +0530,
incongruent,RED,pink,p,0.03,0,9,9,4,,,,,48.873478200002864,,,,,,,,,,,,,,,,,,,,,,,,,,,,,,,,,,,,,,,,,,,,,,,,,,,,,,,,,,,,,,,,,,,,,,,,,,,,,,,,,,,,,,,,,,,,,,,,,,,,,,,,,,,,,,,,,,,,,,,,,48.8395273999995,48.873478200002864,48.873478200002864,48.873478200002864,50.520137200001045,p,1,50.62701979999838,50.63610580000386,52.13353420000203,1.6346088999998756,None,,,,,,,,,,,,,,,Hellothisisfinaltrial,001,2024-03-03_17h11.34.230,Stroop_test_final,2023.2.3,119.53215116026256,2024-03-03 17h11.50.255798 +0530,
incongruent,GREEN ,blue,b,0.04,0,10,10,7,,,,,52.16656540000258,,,,,,,,,,,,,,,,,,,,,,,,,,,,,,,,,,,,,,,,,,,,,,,,,,,,,,,,,,,,,,,,,,,,,,,,,,,,,,,,,,,,,,,,,,,,,,,,,,,,,,,,,,,,,,,,,,,,,,,,,52.13376160000189,52.16656540000258,52.16656540000258,52.16656540000258,53.68979870000476,g,0,53.81862710000132,53.839459000002535,55.31976500000019,1.5219485999987228,None,,,,,,,,,,,,,,,Hellothisisfinaltrial,001,2024-03-03_17h11.34.230,Stroop_test_final,2023.2.3,119.53215116026256,2024-03-03 17h11.50.255798 +0530,
congruent,PINK,pink,p,0.05,0,11,11,24,,,,,55.36072710000008,,,,,,,,,,,,,,,,,,,,,,,,,,,,,,,,,,,,,,,,,,,,,,,,,,,,,,,,,,,,,,,,,,,,,,,,,,,,,,,,,,,,,,,,,,,,,,,,,,,,,,,,,,,,,,,,,,,,,,,,,55.32008330000099,55.36072710000008,55.36072710000008,55.36072710000008,55.636760300003516,b,0,55.7460648999986,55.76033509999979,57.249889200000325,0.26981260000320617,None,,,,,,,,,,,,,,,Hellothisisfinaltrial,001,2024-03-03_17h11.34.230,Stroop_test_final,2023.2.3,119.53215116026256,2024-03-03 17h11.50.255798 +0530,
congruent,BLUE,blue,b,0.04,0,12,12,12,,,,,57.29146790000232,,,,,,,,,,,,,,,,,,,,,,,,,,,,,,,,,,,,,,,,,,,,,,,,,,,,,,,,,,,,,,,,,,,,,,,,,,,,,,,,,,,,,,,,,,,,,,,,,,,,,,,,,,,,,,,,,,,,,,,,,57.25016290000349,57.29146790000232,57.29146790000232,57.29146790000232,57.566262899999856,b,1,57.6737432000009,57.69010939999862,59.17921470000147,0.26515800000197487,None,,,,,,,,,,,,,,,Hellothisisfinaltrial,001,2024-03-03_17h11.34.230,Stroop_test_final,2023.2.3,119.53215116026256,2024-03-03 17h11.50.255798 +0530,
incongruent,GREEN ,pink,p,0.03,0,13,13,9,,,,,59.220544900003006,,,,,,,,,,,,,,,,,,,,,,,,,,,,,,,,,,,,,,,,,,,,,,,,,,,,,,,,,,,,,,,,,,,,,,,,,,,,,,,,,,,,,,,,,,,,,,,,,,,,,,,,,,,,,,,,,,,,,,,,,59.17944780000107,59.220544900003006,59.220544900003006,59.220544900003006,59.55471160000161,b,0,59.67228420000174,59.68655189999845,61.175485100000515,0.33175219999975525,None,,,,,,,,,,,,,,,Hellothisisfinaltrial,001,2024-03-03_17h11.34.230,Stroop_test_final,2023.2.3,119.53215116026256,2024-03-03 17h11.50.255798 +0530,
incongruent,BLUE,red,r,0.06,0,14,14,10,,,,,61.217001800003345,,,,,,,,,,,,,,,,,,,,,,,,,,,,,,,,,,,,,,,,,,,,,,,,,,,,,,,,,,,,,,,,,,,,,,,,,,,,,,,,,,,,,,,,,,,,,,,,,,,,,,,,,,,,,,,,,,,,,,,,,61.17576420000114,61.217001800003345,61.217001800003345,61.217001800003345,61.567662599998584,b,0,61.70138370000495,61.70877570000448,63.206062800003565,0.3347243999960483,None,,,,,,,,,,,,,,,Hellothisisfinaltrial,001,2024-03-03_17h11.34.230,Stroop_test_final,2023.2.3,119.53215116026256,2024-03-03 17h11.50.255798 +0530,
incongruent,YELLOW,red,r,0.06,0,15,15,15,,,,,63.24769240000023,,,,,,,,,,,,,,,,,,,,,,,,,,,,,,,,,,,,,,,,,,,,,,,,,,,,,,,,,,,,,,,,,,,,,,,,,,,,,,,,,,,,,,,,,,,,,,,,,,,,,,,,,,,,,,,,,,,,,,,,,63.20639089999895,63.24769240000023,63.24769240000023,63.24769240000023,63.62330790000124,b,0,63.73193600000377,63.74670409999817,65.23525789999985,0.3681204999957117,None,,,,,,,,,,,,,,,Hellothisisfinaltrial,001,2024-03-03_17h11.34.230,Stroop_test_final,2023.2.3,119.53215116026256,2024-03-03 17h11.50.255798 +0530,
incongruent,RED,green,g,0.05,0,16,16,1,,,,,65.27659210000274,,,,,,,,,,,,,,,,,,,,,,,,,,,,,,,,,,,,,,,,,,,,,,,,,,,,,,,,,,,,,,,,,,,,,,,,,,,,,,,,,,,,,,,,,,,,,,,,,,,,,,,,,,,,,,,,,,,,,,,,,65.23554220000369,65.27659210000274,65.27659210000274,65.27659210000274,65.57730029999948,b,0,65.69415570000274,65.70178799999849,67.19803640000464,0.2851364000016474,None,,,,,,,,,,,,,,,Hellothisisfinaltrial,001,2024-03-03_17h11.34.230,Stroop_test_final,2023.2.3,119.53215116026256,2024-03-03 17h11.50.255798 +0530,
incongruent,YELLOW,pink,p,0.05,0,17,17,19,,,,,67.23145289999957,,,,,,,,,,,,,,,,,,,,,,,,,,,,,,,,,,,,,,,,,,,,,,,,,,,,,,,,,,,,,,,,,,,,,,,,,,,,,,,,,,,,,,,,,,,,,,,,,,,,,,,,,,,,,,,,,,,,,,,,,67.19827580000128,67.23145289999957,67.23145289999957,67.23145289999957,67.5180040999985,b,0,67.61941680000018,67.63079450000077,69.12017480000213,0.26863260000391165,None,,,,,,,,,,,,,,,Hellothisisfinaltrial,001,2024-03-03_17h11.34.230,Stroop_test_final,2023.2.3,119.53215116026256,2024-03-03 17h11.50.255798 +0530,
incongruent,PINK,green,g,0.05,0,18,18,21,,,,,69.15404490000219,,,,,,,,,,,,,,,,,,,,,,,,,,,,,,,,,,,,,,,,,,,,,,,,,,,,,,,,,,,,,,,,,,,,,,,,,,,,,,,,,,,,,,,,,,,,,,,,,,,,,,,,,,,,,,,,,,,,,,,,,69.12049300000217,69.15404490000219,69.15404490000219,69.15404490000219,69.60306860000128,b,0,69.71100220000517,69.72742020000442,71.21653450000304,0.4475371000007726,None,,,,,,,,,,,,,,,Hellothisisfinaltrial,001,2024-03-03_17h11.34.230,Stroop_test_final,2023.2.3,119.53215116026256,2024-03-03 17h11.50.255798 +0530,
congruent,RED,red,r,0.06,0,19,19,0,,,,,71.2501826000007,,,,,,,,,,,,,,,,,,,,,,,,,,,,,,,,,,,,,,,,,,,,,,,,,,,,,,,,,,,,,,,,,,,,,,,,,,,,,,,,,,,,,,,,,,,,,,,,,,,,,,,,,,,,,,,,,,,,,,,,,71.21687360000215,71.2501826000007,71.2501826000007,71.2501826000007,71.61701529999846,b,0,71.73918530000083,71.74946500000078,73.2464078999983,0.3654664999994566,None,,,,,,,,,,,,,,,Hellothisisfinaltrial,001,2024-03-03_17h11.34.230,Stroop_test_final,2023.2.3,119.53215116026256,2024-03-03 17h11.50.255798 +0530,
incongruent,YELLOW,green,g,0.05,0,20,20,16,,,,,73.2708238999985,,,,,,,,,,,,,,,,,,,,,,,,,,,,,,,,,,,,,,,,,,,,,,,,,,,,,,,,,,,,,,,,,,,,,,,,,,,,,,,,,,,,,,,,,,,,,,,,,,,,,,,,,,,,,,,,,,,,,,,,,73.24670680000418,73.2708238999985,73.2708238999985,73.2708238999985,73.80477360000077,b,0,73.92870870000479,73.9448326999991,75.43584170000395,0.5272049999985029,None,,,,,,,,,,,,,,,Hellothisisfinaltrial,001,2024-03-03_17h11.34.230,Stroop_test_final,2023.2.3,119.53215116026256,2024-03-03 17h11.50.255798 +0530,
incongruent,PINK,blue,b,0.04,0,21,21,22,,,,,75.46736290000263,,,,,,,,,,,,,,,,,,,,,,,,,,,,,,,,,,,,,,,,,,,,,,,,,,,,,,,,,,,,,,,,,,,,,,,,,,,,,,,,,,,,,,,,,,,,,,,,,,,,,,,,,,,,,,,,,,,,,,,,,75.43620450000162,75.46736290000263,75.46736290000263,75.46736290000263,76.02704380000068,b,1,76.15498270000535,76.17399229999864,77.65519360000326,0.5566737999979523,None,,,,,,,,,,,,,,,Hellothisisfinaltrial,001,2024-03-03_17h11.34.230,Stroop_test_final,2023.2.3,119.53215116026256,2024-03-03 17h11.50.255798 +0530,
incongruent,BLUE,yellow,y,0.07,0,22,22,13,,,,,77.69629730000452,,,,,,,,,,,,,,,,,,,,,,,,,,,,,,,,,,,,,,,,,,,,,,,,,,,,,,,,,,,,,,,,,,,,,,,,,,,,,,,,,,,,,,,,,,,,,,,,,,,,,,,,,,,,,,,,,,,,,,,,,77.65551080000296,77.69629730000452,77.69629730000452,77.69629730000452,78.27222220000112,b,0,78.38014410000324,78.39663220000512,79.88493420000304,0.5740028000000166,None,,,,,,,,,,,,,,,Hellothisisfinaltrial,001,2024-03-03_17h11.34.230,Stroop_test_final,2023.2.3,119.53215116026256,2024-03-03 17h11.50.255798 +0530,
congruent,GREEN ,green,g,0.05,0,23,23,6,,,,,79.92647320000106,,,,,,,,,,,,,,,,,,,,,,,,,,,,,,,,,,,,,,,,,,,,,,,,,,,,,,,,,,,,,,,,,,,,,,,,,,,,,,,,,,,,,,,,,,,,,,,,,,,,,,,,,,,,,,,,,,,,,,,,,79.8852407000013,79.92647320000106,79.92647320000106,79.92647320000106,80.41848980000213,b,0,80.54011680000258,80.55129770000349,82.04710770000383,0.4887421000021277,None,,,,,,,,,,,,,,,Hellothisisfinaltrial,001,2024-03-03_17h11.34.230,Stroop_test_final,2023.2.3,119.53215116026256,2024-03-03 17h11.50.255798 +0530,
incongruent,RED,yellow,y,0.07,0,24,24,3,,,,,82.08005830000184,,,,,,,,,,,,,,,,,,,,,,,,,,,,,,,,,,,,,,,,,,,,,,,,,,,,,,,,,,,,,,,,,,,,,,,,,,,,,,,,,,,,,,,,,,,,,,,,,,,,,,,,,,,,,,,,,,,,,,,,,82.04753120000532,82.08005830000184,82.08005830000184,82.08005830000184,82.39668220000021,b,0,82.49909889999981,82.5129098000034,84.00218630000018,0.31150549999438226,None,,,,,,,,,,,,,,,Hellothisisfinaltrial,001,2024-03-03_17h11.34.230,Stroop_test_final,2023.2.3,119.53215116026256,2024-03-03 17h11.50.255798 +0530,
,,,,,,,,,,,,,,,,,,,,,,,,,,,,,,,,,,,,,,,,,,,,,,,,,,,,,,,,,,,,,,,,,,,,,,,,,,,,,,,,,,,,,,,,,,,,,,,,,,,,,,,,,,,,,,,,,,,,84.00226910000492,84.01814120000199,84.01814120000199,84.01814120000199,84.01814120000199,88.23119099999894,None,,,,,,,,,,,,,,,,,,,,,,,,,,,,,,,,,,,,,,Hellothisisfinaltrial,001,2024-03-03_17h11.34.230,Stroop_test_final,2023.2.3,119.53215116026256,2024-03-03 17h11.50.255798 +0530,
,,,,,,,,,,,,,,,,,,,,,,,,,,,,,,,,,,,,,,,,,,,,,,,,,,,,,,,,,,,,,,,,,,,,,,,,,,,,,,,,,,,,,,,,,,,,,,,,,,,,,,,,,,,,,,,,,,,,,,,,,,,1,space,4.169966399997065,None,,,,,,,,,,,,,,,,,,,,,,,,,,,,,,,,,,Hellothisisfinaltrial,001,2024-03-03_17h11.34.230,Stroop_test_final,2023.2.3,119.53215116026256,2024-03-03 17h11.50.255798 +0530,
,,,,,,,,,,,,,,,,,,,,,,,,,,,,,,,,,,,,,,,,,,,,,,,,,,,,,,,,,,,,,,,,,,,,,,,,,,,,,,,,,,,,,,,,,,,,,,,,,,,,,,,,,,,,,,,,,,,,,,,,,,,,,,,,,,,,,,,,,,,,,,,,,,88.23123889999988,88.25251460000436,88.25251460000436,90.67499130000215,space,2.4097394999989774,None,,,,,,,,Hellothisisfinaltrial,001,2024-03-03_17h11.34.230,Stroop_test_final,2023.2.3,119.53215116026256,2024-03-03 17h11.50.255798 +0530,
incongruent,PINK,red,r,0.06,,,,,0,0,0,20,92.20472220000374,,,,,,,,,93.39350540000305,93.40230200000224,93.77671510000073,,,,,,,,,,,,,,,,,,,,,,,,,,,,,,,,,,,,,,,,,,,,,,,,,,,,,,,,,,,,,,,,,,,,,,,,,,,,,,,,,,,,,,,,,,,,,,,,,,,,,,,,,,,,,,,,,,,,,,,,,,,,,,,,,91.2737449999986,92.20472220000374,92.20472220000374,92.20472220000374,93.28514720000385,None,0,Hellothisisfinaltrial,001,2024-03-03_17h11.34.230,Stroop_test_final,2023.2.3,119.53215116026256,2024-03-03 17h11.50.255798 +0530,
incongruent,PINK,green,g,0.05,,,,,0,1,1,21,93.83422480000445,,,,,,,,,96.01155030000518,96.02215830000205,96.37974470000336,,,,,,,,,,,,,,,,,,,,,,,,,,,,,,,,,,,,,,,,,,,,,,,,,,,,,,,,,,,,,,,,,,,,,,,,,,,,,,,,,,,,,,,,,,,,,,,,,,,,,,,,,,,,,,,,,,,,,,,,,,,,,,,,,93.77703409999958,93.83422480000445,93.83422480000445,93.83422480000445,95.88062319999881,None,0,Hellothisisfinaltrial,001,2024-03-03_17h11.34.230,Stroop_test_final,2023.2.3,119.53215116026256,2024-03-03 17h11.50.255798 +0530,
incongruent,RED,blue,b,0.04,,,,,0,2,2,2,96.41281470000104,,,,,,,,,98.59783669999888,98.60936539999966,98.9751585999984,,,,,,,,,,,,,,,,,,,,,,,,,,,,,,,,,,,,,,,,,,,,,,,,,,,,,,,,,,,,,,,,,,,,,,,,,,,,,,,,,,,,,,,,,,,,,,,,,,,,,,,,,,,,,,,,,,,,,,,,,,,,,,,,,96.37997230000474,96.41281470000104,96.41281470000104,96.41281470000104,98.47641360000125,None,0,Hellothisisfinaltrial,001,2024-03-03_17h11.34.230,Stroop_test_final,2023.2.3,119.53215116026256,2024-03-03 17h11.50.255798 +0530,
incongruent,PINK,yellow,y,0.07,,,,,0,3,3,23,99.03347059999942,,,,,,,,,101.18287530000089,101.19030360000033,101.57957280000119,,,,,,,,,,,,,,,,,,,,,,,,,,,,,,,,,,,,,,,,,,,,,,,,,,,,,,,,,,,,,,,,,,,,,,,,,,,,,,,,,,,,,,,,,,,,,,,,,,,,,,,,,,,,,,,,,,,,,,,,,,,,,,,,,98.97549070000241,99.03347059999942,99.03347059999942,99.03347059999942,101.07985059999919,None,0,Hellothisisfinaltrial,001,2024-03-03_17h11.34.230,Stroop_test_final,2023.2.3,119.53215116026256,2024-03-03 17h11.50.255798 +0530,
incongruent,GREEN ,yellow,y,0.07,,,,,0,4,4,8,101.61235780000425,,,,,,,,,103.80018199999904,103.8086175999997,104.18246770000405,,,,,,,,,,,,,,,,,,,,,,,,,,,,,,,,,,,,,,,,,,,,,,,,,,,,,,,,,,,,,,,,,,,,,,,,,,,,,,,,,,,,,,,,,,,,,,,,,,,,,,,,,,,,,,,,,,,,,,,,,,,,,,,,,101.57981609999842,101.61235780000425,101.61235780000425,101.61235780000425,103.67675450000388,None,0,Hellothisisfinaltrial,001,2024-03-03_17h11.34.230,Stroop_test_final,2023.2.3,119.53215116026256,2024-03-03 17h11.50.255798 +0530,
incongruent,YELLOW,pink,p,0.05,,,,,0,5,5,19,104.2324351999996,,,,,,,,,106.38725649999833,106.39610979999998,106.77827880000405,,,,,,,,,,,,,,,,,,,,,,,,,,,,,,,,,,,,,,,,,,,,,,,,,,,,,,,,,,,,,,,,,,,,,,,,,,,,,,,,,,,,,,,,,,,,,,,,,,,,,,,,,,,,,,,,,,,,,,,,,,,,,,,,,104.18272490000527,104.2324351999996,104.2324351999996,104.2324351999996,106.27942900000198,None,0,Hellothisisfinaltrial,001,2024-03-03_17h11.34.230,Stroop_test_final,2023.2.3,119.53215116026256,2024-03-03 17h11.50.255798 +0530,
congruent,YELLOW,yellow,y,0.07,,,,,0,6,6,18,106.81208070000139,,,,,,,,,109.00706550000177,109.0165491000007,109.38150570000289,,,,,,,,,,,,,,,,,,,,,,,,,,,,,,,,,,,,,,,,,,,,,,,,,,,,,,,,,,,,,,,,,,,,,,,,,,,,,,,,,,,,,,,,,,,,,,,,,,,,,,,,,,,,,,,,,,,,,,,,,,,,,,,,,106.77851770000416,106.81208070000139,106.81208070000139,106.81208070000139,108.88288160000229,None,0,Hellothisisfinaltrial,001,2024-03-03_17h11.34.230,Stroop_test_final,2023.2.3,119.53215116026256,2024-03-03 17h11.50.255798 +0530,
incongruent,BLUE,red,r,0.06,,,,,0,7,7,10,109.40690000000177,,,,,,,,,111.5908408000032,111.60319410000375,111.97703320000437,,,,,,,,,,,,,,,,,,,,,,,,,,,,,,,,,,,,,,,,,,,,,,,,,,,,,,,,,,,,,,,,,,,,,,,,,,,,,,,,,,,,,,,,,,,,,,,,,,,,,,,,,,,,,,,,,,,,,,,,,,,,,,,,,109.3817366000003,109.40690000000177,109.40690000000177,109.40690000000177,111.48682620000181,None,0,Hellothisisfinaltrial,001,2024-03-03_17h11.34.230,Stroop_test_final,2023.2.3,119.53215116026256,2024-03-03 17h11.50.255798 +0530,
incongruent,GREEN ,red,r,0.06,,,,,0,8,8,5,112.01871889999893,,,,,,,,,114.20906890000333,114.21706640000048,114.58066010000039,,,,,,,,,,,,,,,,,,,,,,,,,,,,,,,,,,,,,,,,,,,,,,,,,,,,,,,,,,,,,,,,,,,,,,,,,,,,,,,,,,,,,,,,,,,,,,,,,,,,,,,,,,,,,,,,,,,,,,,,,,,,,,,,,111.97726820000389,112.01871889999893,112.01871889999893,112.01871889999893,114.08264240000426,None,0,Hellothisisfinaltrial,001,2024-03-03_17h11.34.230,Stroop_test_final,2023.2.3,119.53215116026256,2024-03-03 17h11.50.255798 +0530,
incongruent,RED,pink,p,0.03,,,,,0,9,9,4,114.60575680000329,,,,,,,,,116.7958318000019,116.80368599999929,117.17614880000474,,,,,,,,,,,,,,,,,,,,,,,,,,,,,,,,,,,,,,,,,,,,,,,,,,,,,,,,,,,,,,,,,,,,,,,,,,,,,,,,,,,,,,,,,,,,,,,,,,,,,,,,,,,,,,,,,,,,,,,,,,,,,,,,,114.58091110000532,114.60575680000329,114.60575680000329,114.60575680000329,116.67768790000264,None,0,Hellothisisfinaltrial,001,2024-03-03_17h11.34.230,Stroop_test_final,2023.2.3,119.53215116026256,2024-03-03 17h11.50.255798 +0530,
incongruent,YELLOW,blue,b,0.04,,,,,0,10,10,17,117.22664390000136,,,,,,,,,119.41573259999859,119.4232370000027,119.78002630000265,,,,,,,,,,,,,,,,,,,,,,,,,,,,,,,,,,,,,,,,,,,,,,,,,,,,,,,,,,,,,,,,,,,,,,,,,,,,,,,,,,,,,,,,,,,,,,,,,,,,,,,,,,,,,,,,,,,,,,,,,,,,,,,,,117.17645650000486,117.22664390000136,117.22664390000136,117.22664390000136,119.28925729999901,None,0,Hellothisisfinaltrial,001,2024-03-03_17h11.34.230,Stroop_test_final,2023.2.3,119.53215116026256,2024-03-03 17h11.50.255798 +0530,
incongruent,PINK,blue,b,0.04,,,,,0,11,11,22,119.81383590000041,,,,,,,,,121.99941170000238,122.00932770000509,122.37554910000472,,,,,,,,,,,,,,,,,,,,,,,,,,,,,,,,,,,,,,,,,,,,,,,,,,,,,,,,,,,,,,,,,,,,,,,,,,,,,,,,,,,,,,,,,,,,,,,,,,,,,,,,,,,,,,,,,,,,,,,,,,,,,,,,,119.78035690000252,119.81383590000041,119.81383590000041,119.81383590000041,121.8761605000036,None,0,Hellothisisfinaltrial,001,2024-03-03_17h11.34.230,Stroop_test_final,2023.2.3,119.53215116026256,2024-03-03 17h11.50.255798 +0530,
congruent,RED,red,r,0.06,,,,,0,12,12,0,122.40005430000019,,,,,,,,,124.58522310000262,124.59623190000275,124.97898870000063,,,,,,,,,,,,,,,,,,,,,,,,,,,,,,,,,,,,,,,,,,,,,,,,,,,,,,,,,,,,,,,,,,,,,,,,,,,,,,,,,,,,,,,,,,,,,,,,,,,,,,,,,,,,,,,,,,,,,,,,,,,,,,,,,122.37581150000187,122.40005430000019,122.40005430000019,122.40005430000019,124.48057700000209,None,0,Hellothisisfinaltrial,001,2024-03-03_17h11.34.230,Stroop_test_final,2023.2.3,119.53215116026256,2024-03-03 17h11.50.255798 +0530,
incongruent,GREEN ,blue,b,0.04,,,,,0,13,13,7,125.02074670000002,,,,,,,,,127.2061532000007,127.21650110000337,127.58269410000503,,,,,,,,,,,,,,,,,,,,,,,,,,,,,,,,,,,,,,,,,,,,,,,,,,,,,,,,,,,,,,,,,,,,,,,,,,,,,,,,,,,,,,,,,,,,,,,,,,,,,,,,,,,,,,,,,,,,,,,,,,,,,,,,,124.97928830000455,125.02074670000002,125.02074670000002,125.02074670000002,127.0844242000021,None,0,Hellothisisfinaltrial,001,2024-03-03_17h11.34.230,Stroop_test_final,2023.2.3,119.53215116026256,2024-03-03 17h11.50.255798 +0530,
incongruent,BLUE,yellow,y,0.07,,,,,0,14,14,13,127.59983900000225,,,,,,,,,129.79213460000028,129.80443570000352,130.1781775000054,,,,,,,,,,,,,,,,,,,,,,,,,,,,,,,,,,,,,,,,,,,,,,,,,,,,,,,,,,,,,,,,,,,,,,,,,,,,,,,,,,,,,,,,,,,,,,,,,,,,,,,,,,,,,,,,,,,,,,,,,,,,,,,,,127.58292380000057,127.59983900000225,127.59983900000225,127.59983900000225,129.67995170000358,None,0,Hellothisisfinaltrial,001,2024-03-03_17h11.34.230,Stroop_test_final,2023.2.3,119.53215116026256,2024-03-03 17h11.50.255798 +0530,
,,,,,,,,,,,,,130.2203570999991,,,,,,,,,,,,,,,,,,,,,,,,,,,,,,,,,,,,,,,,,,,,,,,,,,,,,,,,,,,,,,,,,,,,,,,,,,,,,,,,,,,,,,,,,,,,,,,,,,,,,,,,,,,,,,,,,,,,,,,,,,,,,,,,,,,,,,,,,,,,130.178450899999,130.2203570999991,130.2203570999991,130.2203570999991,,,,,,,,,,,
